#Wavelength(AA) Transmission
26480.000000 0.000000
26590.000000 0.000000
26700.000000 0.001117
26810.000000 0.000571
26920.000000 0.000756
27030.000000 0.004387
27140.000000 0.010584
27250.000000 0.007894
27360.000000 0.005042
27470.000000 0.007963
27580.000000 0.016008
27690.000000 0.029775
27800.000000 0.060454
27910.000000 0.121931
28020.000000 0.212571
28130.000000 0.304312
28240.000000 0.361286
28350.000000 0.375748
28460.000000 0.365295
28570.000000 0.348627
28680.000000 0.329402
28790.000000 0.311770
28900.000000 0.308635
29010.000000 0.323881
29120.000000 0.352470
29230.000000 0.383778
29340.000000 0.410504
29450.000000 0.432442
29560.000000 0.451292
29670.000000 0.470508
29780.000000 0.489355
29890.000000 0.502603
30000.000000 0.507892
30110.000000 0.511650
30220.000000 0.513952
30330.000000 0.509146
30440.000000 0.497164
30550.000000 0.481124
30660.000000 0.461623
30770.000000 0.439321
30880.000000 0.418601
30990.000000 0.406966
31100.000000 0.415211
31210.000000 0.447866
31320.000000 0.495630
31430.000000 0.538803
31540.000000 0.569964
31650.000000 0.591013
31760.000000 0.607181
31870.000000 0.621363
31980.000000 0.633131
32090.000000 0.640559
32200.000000 0.646509
32310.000000 0.650361
32420.000000 0.650933
32530.000000 0.644740
32640.000000 0.638191
32750.000000 0.636598
32860.000000 0.648147
32970.000000 0.679828
33080.000000 0.727574
33190.000000 0.780331
33300.000000 0.827146
33410.000000 0.858948
33520.000000 0.872999
33630.000000 0.866640
33740.000000 0.847336
33850.000000 0.824408
33960.000000 0.798839
34070.000000 0.780411
34180.000000 0.788995
34290.000000 0.831735
34400.000000 0.894193
34510.000000 0.951151
34620.000000 0.985958
34730.000000 0.999985
34840.000000 1.000000
34950.000000 0.995629
35060.000000 0.991937
35170.000000 0.988229
35280.000000 0.984172
35390.000000 0.974150
35500.000000 0.957080
35610.000000 0.934721
35720.000000 0.909878
35830.000000 0.887443
35940.000000 0.875136
36050.000000 0.877450
36160.000000 0.894151
36270.000000 0.914402
36380.000000 0.927035
36490.000000 0.930868
36600.000000 0.929237
36710.000000 0.926513
36820.000000 0.922860
36930.000000 0.919140
37040.000000 0.916391
37150.000000 0.914538
37260.000000 0.907744
37370.000000 0.883661
37480.000000 0.831517
37590.000000 0.746236
37700.000000 0.629214
37810.000000 0.491976
37920.000000 0.352272
38030.000000 0.232666
38140.000000 0.144229
38250.000000 0.085065
38360.000000 0.049664
38470.000000 0.029543
38580.000000 0.017891
38690.000000 0.010717
38800.000000 0.006360
38910.000000 0.004318
39020.000000 0.003616
39130.000000 0.000000
39240.000000 0.000000
